Raman Shift ; Dark Subtracted
176 ; 1360.15
180 ; 1208.66
184 ; 1075.77
188 ; 964.99
192 ; 862.72
196 ; 774.01
200 ; 711.68
204 ; 660.50
208 ; 609.99
212 ; 558.16
216 ; 537.57
220 ; 491.75
224 ; 450.25
228 ; 420.95
232 ; 412.54
236 ; 390.45
240 ; 399.87
244 ; 370.91
248 ; 352.07
252 ; 349.29
256 ; 346.43
260 ; 336.88
264 ; 318.50
268 ; 315.68
272 ; 308.71
276 ; 295.57
280 ; 291.77
284 ; 284.90
288 ; 255.26
292 ; 238.19
296 ; 234.76
300 ; 235.29
304 ; 226.00
308 ; 213.54
312 ; 229.22
316 ; 234.87
320 ; 211.10
324 ; 209.62
328 ; 206.73
332 ; 206.40
336 ; 190.81
340 ; 198.55
344 ; 192.77
348 ; 199.62
352 ; 202.71
356 ; 192.76
360 ; 200.79
364 ; 191.87
368 ; 207.14
372 ; 191.59
376 ; 201.44
380 ; 203.30
384 ; 192.01
388 ; 194.34
392 ; 210.82
396 ; 200.02
400 ; 200.68
404 ; 193.24
408 ; 181.21
412 ; 196.70
416 ; 207.26
420 ; 195.30
424 ; 182.84
428 ; 180.97
432 ; 190.50
436 ; 190.73
440 ; 197.38
444 ; 192.17
448 ; 174.75
452 ; 187.93
456 ; 177.26
460 ; 174.78
464 ; 168.53
468 ; 167.97
472 ; 145.68
476 ; 159.92
480 ; 158.85
484 ; 162.70
488 ; 163.29
492 ; 176.97
496 ; 161.31
500 ; 146.54
504 ; 152.21
508 ; 140.82
512 ; 132.83
516 ; 148.64
520 ; 152.52
524 ; 142.04
528 ; 149.13
532 ; 152.31
536 ; 151.34
540 ; 140.52
544 ; 168.44
548 ; 162.29
552 ; 166.74
556 ; 151.23
560 ; 150.91
564 ; 154.31
568 ; 164.51
572 ; 147.76
576 ; 141.37
580 ; 134.41
584 ; 156.33
588 ; 156.76
592 ; 138.29
596 ; 151.52
600 ; 133.62
604 ; 123.33
608 ; 136.57
612 ; 139.20
616 ; 127.36
620 ; 130.05
624 ; 124.97
628 ; 133.57
632 ; 118.43
636 ; 122.89
640 ; 111.92
644 ; 102.35
648 ; 129.86
652 ; 117.54
656 ; 118.18
660 ; 115.62
664 ; 94.47
668 ; 94.07
672 ; 116.66
676 ; 108.48
680 ; 101.12
684 ; 107.98
688 ; 115.36
692 ; 127.84
696 ; 117.79
700 ; 144.75
704 ; 151.30
708 ; 233.26
712 ; 345.17
716 ; 395.92
720 ; 331.84
724 ; 204.83
728 ; 182.27
732 ; 249.95
736 ; 457.61
740 ; 617.84
744 ; 570.71
748 ; 358.94
752 ; 183.62
756 ; 156.00
760 ; 105.01
764 ; 84.80
768 ; 102.58
772 ; 105.31
776 ; 80.39
780 ; 107.86
784 ; 95.82
788 ; 79.25
792 ; 103.26
796 ; 82.93
800 ; 83.66
804 ; 73.42
808 ; 103.42
812 ; 102.88
816 ; 94.23
820 ; 89.91
824 ; 98.77
828 ; 99.33
832 ; 96.22
836 ; 84.71
840 ; 84.11
844 ; 105.71
848 ; 84.99
852 ; 84.41
856 ; 81.48
860 ; 68.82
864 ; 83.98
868 ; 88.55
872 ; 103.69
876 ; 82.98
880 ; 91.86
884 ; 87.48
888 ; 105.97
892 ; 89.66
896 ; 73.94
900 ; 68.25
904 ; 79.22
908 ; 101.91
912 ; 102.95
916 ; 102.00
920 ; 97.17
924 ; 87.12
928 ; 94.61
932 ; 95.18
936 ; 88.92
940 ; 111.99
944 ; 106.77
948 ; 91.48
952 ; 111.69
956 ; 84.36
960 ; 103.78
964 ; 87.49
968 ; 94.16
972 ; 81.30
976 ; 86.98
980 ; 108.88
984 ; 105.61
988 ; 102.98
992 ; 103.60
996 ; 112.42
1000 ; 102.77
1004 ; 105.08
1008 ; 123.06
1012 ; 150.94
1016 ; 175.64
1020 ; 169.85
1024 ; 266.73
1028 ; 315.49
1032 ; 428.73
1036 ; 842.92
1040 ; 2468.77
1044 ; 7845.78
1048 ; 9586.19
1052 ; 4407.66
1056 ; 1597.75
1060 ; 680.16
1064 ; 362.27
1068 ; 250.74
1072 ; 208.21
1076 ; 173.63
1080 ; 146.01
1084 ; 129.82
1088 ; 130.11
1092 ; 128.65
1096 ; 108.81
1100 ; 95.32
1104 ; 110.05
1108 ; 117.82
1112 ; 115.19
1116 ; 138.69
1120 ; 100.12
1124 ; 120.72
1128 ; 129.59
1132 ; 142.16
1136 ; 91.30
1140 ; 96.68
1144 ; 97.24
1148 ; 92.45
1152 ; 106.34
1156 ; 99.24
1160 ; 98.20
1164 ; 104.40
1168 ; 109.52
1172 ; 77.41
1176 ; 106.05
1180 ; 79.30
1184 ; 82.28
1188 ; 106.59
1192 ; 113.31
1196 ; 86.59
1200 ; 94.63
1204 ; 95.30
1208 ; 56.87
1212 ; 89.16
1216 ; 102.60
1220 ; 75.42
1224 ; 101.52
1228 ; 96.41
1232 ; 105.89
1236 ; 85.25
1240 ; 106.91
1244 ; 124.86
1248 ; 88.20
1252 ; 84.94
1256 ; 114.54
1260 ; 63.37
1264 ; 89.01
1268 ; 75.32
1272 ; 117.17
1276 ; 85.83
1280 ; 98.99
1284 ; 126.88
1288 ; 144.98
1292 ; 137.92
1296 ; 149.25
1300 ; 123.91
1304 ; 112.51
1308 ; 124.70
1312 ; 122.13
1316 ; 154.16
1320 ; 153.12
1324 ; 120.19
1328 ; 134.05
1332 ; 150.11
1336 ; 177.46
1340 ; 159.50
1344 ; 239.21
1348 ; 257.87
1352 ; 286.00
1356 ; 275.80
1360 ; 219.37
1364 ; 225.43
1368 ; 195.46
1372 ; 178.40
1376 ; 115.58
1380 ; 108.42
1384 ; 121.86
1388 ; 107.03
1392 ; 92.60
1396 ; 119.58
1400 ; 120.88
1404 ; 132.21
1408 ; 124.09
1412 ; 184.08
1416 ; 257.91
1420 ; 236.01
1424 ; 282.39
1428 ; 322.07
1432 ; 304.29
1436 ; 316.49
1440 ; 229.19
1444 ; 258.24
1448 ; 244.91
1452 ; 238.73
1456 ; 224.81
1460 ; 224.80
1464 ; 170.10
1468 ; 191.27
1472 ; 173.49
1476 ; 193.20
1480 ; 169.27
1484 ; 124.19
1488 ; 133.94
1492 ; 152.05
1496 ; 84.67
1500 ; 116.14
1504 ; 147.93
1508 ; 84.27
1512 ; 124.26
1516 ; 106.11
1520 ; 33.06
1524 ; 98.11
1528 ; 68.96
1532 ; 91.05
1536 ; 144.24
1540 ; 96.10
1544 ; 110.15
1548 ; 71.39
1552 ; 88.37
1556 ; 104.08
1560 ; 134.08
1564 ; 113.31
1568 ; 111.73
1572 ; 59.83
1576 ; 106.27
1580 ; 76.56
1584 ; 129.76
1588 ; 58.11
1592 ; 89.48
1596 ; 91.61
1600 ; 95.98
1604 ; 66.87
1608 ; 127.17
1612 ; 113.65
1616 ; 112.81
1620 ; 90.47
1624 ; 162.46
1628 ; 160.10
1632 ; 219.11
1636 ; 260.15
1640 ; 205.44
1644 ; 183.75
1648 ; 119.64
1652 ; 180.76
1656 ; 146.45
1660 ; 145.71
1664 ; 146.75
1668 ; 72.18
1672 ; 143.70
1676 ; 61.54
1680 ; 102.05
1684 ; 109.81
1688 ; 110.92
1692 ; 121.05
1696 ; 52.87
1700 ; 8.56
1704 ; 115.63
1708 ; 128.85
1712 ; 69.11
1716 ; 82.17
1720 ; 144.43
1724 ; 75.09
1728 ; 126.62
1732 ; 49.83
1736 ; 71.16
1740 ; 139.40
1744 ; 56.71
1748 ; 30.25
1752 ; 134.67
1756 ; 55.02
1760 ; 9.65
1764 ; 42.74
1768 ; 39.44
1772 ; 55.56
1776 ; 43.64
1780 ; 65.17
1784 ; 125.04
1788 ; 93.78
1792 ; 80.60
1796 ; 110.21
1800 ; 51.22
1804 ; 35.81
1808 ; 36.06
1812 ; 64.94
1816 ; 11.98
1820 ; 76.40
1824 ; 143.90
1828 ; 78.07
1832 ; 56.74
1836 ; 89.64
1840 ; 109.92
1844 ; 25.36
1848 ; 65.08
1852 ; 44.46
1856 ; -3.67
1860 ; -6.24
1864 ; 124.42
1868 ; 107.14
1872 ; 98.38
1876 ; 96.05
1880 ; 47.50
1884 ; 70.13
1888 ; 145.92
1892 ; 86.61
1896 ; 140.46
1900 ; 17.74
1904 ; 70.91
1908 ; 78.36
1912 ; 55.12
1916 ; 36.26
1920 ; 81.64
1924 ; 105.98
1928 ; 29.30
1932 ; 95.63
1936 ; 65.81
1940 ; 153.77
1944 ; 53.44
1948 ; 122.43
1952 ; 14.69
1956 ; 166.58
1960 ; 123.81
1964 ; -13.24
1968 ; 72.20
1972 ; 10.54
1976 ; -94.05
1980 ; 81.82
1984 ; 207.21
1988 ; 74.36
1992 ; 130.63
1996 ; 185.75
2000 ; -52.63
2004 ; 46.73
2008 ; 174.61
2012 ; 35.97
2016 ; 161.86
2020 ; 135.07
2024 ; 106.22
2028 ; 140.92
2032 ; 176.31
2036 ; 36.47
2040 ; 187.47
2044 ; 98.57
2048 ; 66.42
2052 ; 41.39
2056 ; 107.66
2060 ; 96.12
2064 ; 69.53
2068 ; 129.32
2072 ; 30.14
2076 ; 76.08
2080 ; 154.35
2084 ; 73.93
2088 ; 46.33
2092 ; 204.47
2096 ; 2.96
2100 ; 50.06
2104 ; 202.03
2108 ; 62.02
2112 ; 89.67
2116 ; 188.03
2120 ; 78.61
2124 ; 165.25
2128 ; 125.40
2132 ; -30.22
2136 ; 88.84
2140 ; 165.77
2144 ; -0.70
2148 ; 253.76
2152 ; 102.87
2156 ; 12.14
2160 ; 23.65
2164 ; 87.23
2168 ; -39.23
2172 ; 223.67
2176 ; 111.66
2180 ; -7.40
2184 ; 244.23
2188 ; 117.40
2192 ; 43.62
2196 ; 300.75
2200 ; -8.08
2204 ; 171.25
2208 ; 74.18
2212 ; 48.57
2216 ; 46.97
2220 ; 108.22
2224 ; -122.88
2228 ; 115.54
2232 ; 167.56
2236 ; 86.57
2240 ; 194.60
2244 ; 260.10
2248 ; 47.66
2252 ; 56.78
2256 ; 307.61
2260 ; 97.43
2264 ; 99.77
2268 ; 0.86
2272 ; 76.44
2276 ; 140.44
2280 ; 198.04
2284 ; 241.09
2288 ; -33.48
2292 ; 149.64
2296 ; 251.90
2300 ; 33.01
2304 ; 74.20
2308 ; 144.10
2312 ; -93.34
2316 ; 307.92
2320 ; -118.42
2324 ; 320.98
2328 ; 375.43
2332 ; -326.57
2336 ; 288.40
2340 ; 115.35
2344 ; 223.08
2348 ; 122.37
2352 ; 182.67
2356 ; 417.62
2360 ; 265.41
2364 ; 8.97
2368 ; -11.02
2372 ; 62.97
2376 ; 121.43
2380 ; 50.48
2384 ; -82.80
2388 ; 164.33
2392 ; 326.51
2396 ; 29.50
2400 ; 116.79
2404 ; 149.88
2408 ; 272.89
2412 ; 244.80
2416 ; 294.88
2420 ; -61.38
2424 ; -128.61
2428 ; 179.48
2432 ; 118.98
2436 ; 11.43
2440 ; 427.10
2444 ; 575.65
2448 ; -23.06
2452 ; 240.72
2456 ; 158.52
2460 ; 250.01
2464 ; 314.53
2468 ; 347.70
2472 ; -200.91
2476 ; 246.97
2480 ; 52.13
2484 ; 671.05
2488 ; 225.54
2492 ; -67.58
2496 ; 685.14
2500 ; -83.80
