Raman Shift ; Dark Subtracted
176 ; 987.38
180 ; 812.38
184 ; 653.86
188 ; 572.21
192 ; 508.49
196 ; 453.92
200 ; 422.43
204 ; 381.39
208 ; 324.46
212 ; 292.61
216 ; 282.98
220 ; 262.59
224 ; 244.23
228 ; 217.50
232 ; 212.04
236 ; 199.32
240 ; 186.46
244 ; 161.61
248 ; 168.97
252 ; 169.28
256 ; 159.22
260 ; 164.23
264 ; 142.84
268 ; 150.60
272 ; 132.46
276 ; 125.25
280 ; 117.19
284 ; 124.30
288 ; 123.30
292 ; 125.06
296 ; 116.66
300 ; 103.01
304 ; 93.64
308 ; 99.94
312 ; 102.00
316 ; 102.30
320 ; 90.91
324 ; 77.08
328 ; 94.83
332 ; 86.50
336 ; 100.40
340 ; 74.65
344 ; 69.01
348 ; 73.64
352 ; 79.04
356 ; 90.38
360 ; 77.76
364 ; 86.00
368 ; 76.36
372 ; 72.46
376 ; 61.90
380 ; 82.59
384 ; 82.57
388 ; 73.80
392 ; 67.64
396 ; 61.61
400 ; 71.89
404 ; 83.34
408 ; 81.72
412 ; 77.65
416 ; 54.91
420 ; 58.95
424 ; 69.32
428 ; 76.26
432 ; 55.45
436 ; 55.48
440 ; 64.63
444 ; 72.06
448 ; 78.92
452 ; 64.68
456 ; 55.70
460 ; 52.83
464 ; 53.92
468 ; 65.58
472 ; 78.00
476 ; 67.16
480 ; 58.96
484 ; 62.73
488 ; 59.34
492 ; 81.32
496 ; 61.84
500 ; 44.93
504 ; 61.57
508 ; 73.83
512 ; 71.93
516 ; 61.31
520 ; 59.75
524 ; 54.93
528 ; 75.12
532 ; 73.95
536 ; 78.03
540 ; 70.06
544 ; 77.11
548 ; 58.97
552 ; 68.88
556 ; 80.90
560 ; 74.01
564 ; 65.71
568 ; 73.32
572 ; 75.91
576 ; 88.57
580 ; 90.85
584 ; 50.60
588 ; 65.72
592 ; 71.94
596 ; 94.25
600 ; 87.87
604 ; 76.75
608 ; 62.23
612 ; 77.32
616 ; 80.08
620 ; 75.63
624 ; 63.40
628 ; 55.35
632 ; 43.17
636 ; 57.98
640 ; 54.97
644 ; 46.40
648 ; 28.68
652 ; 51.07
656 ; 48.47
660 ; 47.05
664 ; 47.66
668 ; 57.03
672 ; 48.12
676 ; 52.57
680 ; 49.00
684 ; 45.49
688 ; 39.81
692 ; 37.03
696 ; 51.40
700 ; 71.03
704 ; 67.51
708 ; 79.70
712 ; 147.33
716 ; 167.23
720 ; 145.08
724 ; 101.66
728 ; 70.98
732 ; 76.23
736 ; 153.72
740 ; 262.54
744 ; 283.32
748 ; 164.51
752 ; 88.28
756 ; 66.10
760 ; 66.07
764 ; 57.89
768 ; 26.00
772 ; 28.85
776 ; 39.71
780 ; 37.47
784 ; 24.31
788 ; 29.68
792 ; 26.66
796 ; 36.27
800 ; 40.37
804 ; 54.94
808 ; 32.11
812 ; 34.12
816 ; 20.29
820 ; 34.26
824 ; 41.80
828 ; 31.45
832 ; 37.15
836 ; 33.98
840 ; 23.75
844 ; 29.64
848 ; 42.18
852 ; 19.19
856 ; 29.85
860 ; 39.40
864 ; 27.80
868 ; 22.44
872 ; 38.60
876 ; 20.69
880 ; 20.80
884 ; 26.38
888 ; 39.92
892 ; 23.98
896 ; 46.16
900 ; 23.76
904 ; -1.74
908 ; 14.16
912 ; 42.25
916 ; 53.50
920 ; 47.87
924 ; 22.37
928 ; 17.22
932 ; 27.34
936 ; 14.61
940 ; 56.42
944 ; 33.67
948 ; 32.47
952 ; 29.86
956 ; 30.61
960 ; 29.43
964 ; 27.46
968 ; 29.53
972 ; 45.95
976 ; 48.95
980 ; 24.09
984 ; 18.81
988 ; 39.69
992 ; 45.90
996 ; 47.27
1000 ; 41.80
1004 ; 44.81
1008 ; 27.71
1012 ; 46.83
1016 ; 48.76
1020 ; 45.04
1024 ; 109.26
1028 ; 138.33
1032 ; 205.05
1036 ; 346.51
1040 ; 956.31
1044 ; 3151.70
1048 ; 4686.33
1052 ; 3021.57
1056 ; 1136.08
1060 ; 393.33
1064 ; 202.01
1068 ; 104.22
1072 ; 63.84
1076 ; 78.32
1080 ; 70.90
1084 ; 93.93
1088 ; 33.23
1092 ; 24.82
1096 ; 37.87
1100 ; 53.04
1104 ; 37.96
1108 ; -2.38
1112 ; 17.40
1116 ; 55.69
1120 ; 58.34
1124 ; 26.61
1128 ; 46.12
1132 ; 31.74
1136 ; 35.44
1140 ; 20.65
1144 ; 37.34
1148 ; 18.39
1152 ; 52.54
1156 ; 45.71
1160 ; 18.64
1164 ; 7.72
1168 ; 52.11
1172 ; 30.47
1176 ; 39.41
1180 ; 23.60
1184 ; 20.46
1188 ; 48.45
1192 ; 11.94
1196 ; 26.17
1200 ; 6.00
1204 ; 43.92
1208 ; 36.15
1212 ; 24.52
1216 ; 12.24
1220 ; 43.61
1224 ; 48.76
1228 ; 45.10
1232 ; 31.83
1236 ; 48.70
1240 ; 64.94
1244 ; 43.33
1248 ; 51.67
1252 ; 69.00
1256 ; 39.79
1260 ; 21.95
1264 ; 17.26
1268 ; 0.97
1272 ; 59.48
1276 ; 65.90
1280 ; 43.95
1284 ; 21.38
1288 ; 49.73
1292 ; 36.29
1296 ; 12.90
1300 ; 53.43
1304 ; 62.39
1308 ; 73.34
1312 ; 49.62
1316 ; 58.08
1320 ; 65.31
1324 ; 62.16
1328 ; 52.44
1332 ; 40.30
1336 ; 71.48
1340 ; 86.87
1344 ; 98.67
1348 ; 133.76
1352 ; 138.48
1356 ; 177.52
1360 ; 126.85
1364 ; 90.96
1368 ; 55.07
1372 ; 121.65
1376 ; 69.43
1380 ; 41.06
1384 ; 73.36
1388 ; 87.64
1392 ; 58.41
1396 ; 51.14
1400 ; 38.12
1404 ; 84.35
1408 ; 60.54
1412 ; 71.52
1416 ; 50.52
1420 ; 84.81
1424 ; 79.10
1428 ; 87.69
1432 ; 105.44
1436 ; 113.98
1440 ; 120.44
1444 ; 73.97
1448 ; 53.81
1452 ; 73.94
1456 ; 94.03
1460 ; 62.97
1464 ; 100.60
1468 ; 74.84
1472 ; 124.32
1476 ; 45.68
1480 ; 46.42
1484 ; 81.81
1488 ; 50.58
1492 ; 29.54
1496 ; 36.66
1500 ; 77.23
1504 ; 56.77
1508 ; 26.71
1512 ; 54.77
1516 ; 10.43
1520 ; 7.83
1524 ; 33.65
1528 ; 64.94
1532 ; 71.96
1536 ; -44.11
1540 ; 20.44
1544 ; 57.52
1548 ; 58.42
1552 ; 22.76
1556 ; 27.79
1560 ; 78.75
1564 ; 22.85
1568 ; -28.19
1572 ; 7.19
1576 ; 109.21
1580 ; 43.39
1584 ; -20.79
1588 ; 27.00
1592 ; 66.68
1596 ; 28.42
1600 ; 14.92
1604 ; 101.00
1608 ; 41.46
1612 ; 38.00
1616 ; 36.83
1620 ; 63.10
1624 ; 43.00
1628 ; -1.69
1632 ; 100.67
1636 ; 78.44
1640 ; 74.39
1644 ; 41.32
1648 ; 141.74
1652 ; 68.02
1656 ; 35.03
1660 ; 23.48
1664 ; 88.37
1668 ; 52.97
1672 ; -0.43
1676 ; 95.66
1680 ; 26.02
1684 ; 10.27
1688 ; -15.94
1692 ; 91.38
1696 ; 22.72
1700 ; 2.96
1704 ; 76.29
1708 ; -10.49
1712 ; 49.80
1716 ; -7.03
1720 ; 54.79
1724 ; 93.05
1728 ; 23.11
1732 ; -5.67
1736 ; 26.00
1740 ; 10.65
1744 ; 22.04
1748 ; 83.49
1752 ; 123.00
1756 ; 35.28
1760 ; 41.34
1764 ; 43.50
1768 ; 13.16
1772 ; 36.20
1776 ; 59.72
1780 ; 3.27
1784 ; -39.32
1788 ; 28.53
1792 ; -48.97
1796 ; -11.38
1800 ; 52.19
1804 ; 74.05
1808 ; -49.59
1812 ; -34.55
1816 ; 43.20
1820 ; 39.98
1824 ; 50.50
1828 ; 32.80
1832 ; 5.72
1836 ; -32.10
1840 ; -24.97
1844 ; 56.02
1848 ; 13.83
1852 ; 57.19
1856 ; 87.05
1860 ; 13.18
1864 ; -17.47
1868 ; 51.12
1872 ; 169.27
1876 ; -20.33
1880 ; -34.66
1884 ; 92.12
1888 ; 37.72
1892 ; -59.28
1896 ; 13.69
1900 ; 47.43
1904 ; 57.00
1908 ; -24.39
1912 ; 50.86
1916 ; 13.26
1920 ; 38.46
1924 ; 130.90
1928 ; 98.18
1932 ; -31.92
1936 ; 53.62
1940 ; 30.35
1944 ; 39.99
1948 ; 67.57
1952 ; 31.30
1956 ; -19.83
1960 ; -54.29
1964 ; 42.90
1968 ; 82.45
1972 ; -94.39
1976 ; 49.54
1980 ; -95.24
1984 ; -62.24
1988 ; 82.60
1992 ; -65.93
1996 ; 5.36
2000 ; 10.06
2004 ; 19.32
2008 ; -34.74
2012 ; 149.56
2016 ; -105.91
2020 ; 116.00
2024 ; -49.29
2028 ; 20.05
2032 ; -142.38
2036 ; 143.02
2040 ; 126.37
2044 ; 82.63
2048 ; -10.49
2052 ; 161.32
2056 ; -11.72
2060 ; -23.75
2064 ; 179.43
2068 ; -74.53
2072 ; 126.23
2076 ; 90.31
2080 ; -21.87
2084 ; 111.17
2088 ; 96.95
2092 ; 38.28
2096 ; 109.03
2100 ; -20.27
2104 ; 46.94
2108 ; 98.92
2112 ; -18.93
2116 ; 52.32
2120 ; 197.64
2124 ; -89.63
2128 ; 29.34
2132 ; 126.35
2136 ; 32.26
2140 ; -40.85
2144 ; 44.96
2148 ; 43.70
2152 ; 54.67
2156 ; 79.60
2160 ; 116.06
2164 ; 62.32
2168 ; 152.31
2172 ; -33.33
2176 ; 178.00
2180 ; 259.41
2184 ; -105.71
2188 ; 139.76
2192 ; -31.49
2196 ; 152.92
2200 ; 137.94
2204 ; 4.18
2208 ; -27.33
2212 ; 68.88
2216 ; 131.96
2220 ; 123.72
2224 ; 151.58
2228 ; -120.13
2232 ; -209.04
2236 ; 46.01
2240 ; -188.73
2244 ; 269.03
2248 ; 199.54
2252 ; -300.46
2256 ; 78.69
2260 ; 12.97
2264 ; -115.80
2268 ; 179.24
2272 ; 96.39
2276 ; 178.51
2280 ; 303.22
2284 ; -150.29
2288 ; 134.72
2292 ; -37.04
2296 ; 202.80
2300 ; 100.57
2304 ; 110.55
2308 ; 48.16
2312 ; 35.59
2316 ; -50.97
2320 ; -120.93
2324 ; -206.03
2328 ; -188.57
2332 ; 92.02
2336 ; -180.32
2340 ; 213.72
2344 ; 120.09
2348 ; 182.39
2352 ; -51.15
2356 ; 20.24
2360 ; -126.32
2364 ; 426.65
2368 ; -98.92
2372 ; 131.90
2376 ; -54.35
2380 ; -74.44
2384 ; 239.27
2388 ; -80.26
2392 ; 13.00
2396 ; 48.81
2400 ; -78.03
2404 ; 233.07
2408 ; -55.66
2412 ; 416.39
2416 ; -43.19
2420 ; 39.52
2424 ; 410.04
2428 ; -13.63
2432 ; 45.82
2436 ; -223.02
2440 ; 234.36
2444 ; 80.63
2448 ; -167.15
2452 ; 104.23
2456 ; -475.22
2460 ; -222.59
2464 ; -8.11
2468 ; -225.98
2472 ; 89.27
2476 ; -17.47
2480 ; 259.38
2484 ; -342.30
2488 ; -233.93
2492 ; 41.49
2496 ; -258.13
2500 ; 311.81
