Raman Shift ; Dark Subtracted
176 ; 1097.26
180 ; 904.41
184 ; 763.51
188 ; 703.50
192 ; 633.69
196 ; 584.16
200 ; 513.68
204 ; 466.40
208 ; 419.14
212 ; 400.91
216 ; 358.02
220 ; 333.39
224 ; 308.99
228 ; 284.78
232 ; 272.20
236 ; 264.99
240 ; 241.41
244 ; 239.14
248 ; 227.94
252 ; 222.18
256 ; 217.34
260 ; 225.61
264 ; 231.08
268 ; 198.48
272 ; 213.60
276 ; 179.57
280 ; 182.34
284 ; 185.42
288 ; 175.72
292 ; 164.24
296 ; 139.81
300 ; 127.97
304 ; 156.85
308 ; 146.08
312 ; 140.00
316 ; 134.09
320 ; 111.42
324 ; 114.16
328 ; 125.13
332 ; 125.56
336 ; 129.70
340 ; 108.98
344 ; 104.68
348 ; 114.76
352 ; 119.92
356 ; 115.41
360 ; 115.09
364 ; 113.16
368 ; 117.72
372 ; 115.06
376 ; 125.89
380 ; 119.97
384 ; 117.43
388 ; 102.66
392 ; 123.49
396 ; 126.97
400 ; 120.04
404 ; 113.70
408 ; 111.79
412 ; 114.87
416 ; 131.71
420 ; 127.22
424 ; 108.72
428 ; 121.39
432 ; 108.81
436 ; 103.62
440 ; 104.12
444 ; 112.58
448 ; 105.90
452 ; 98.96
456 ; 104.51
460 ; 118.64
464 ; 102.16
468 ; 99.63
472 ; 88.40
476 ; 84.78
480 ; 91.60
484 ; 99.72
488 ; 100.00
492 ; 97.24
496 ; 102.17
500 ; 98.98
504 ; 95.80
508 ; 100.27
512 ; 96.95
516 ; 91.72
520 ; 78.79
524 ; 85.52
528 ; 110.94
532 ; 99.91
536 ; 100.73
540 ; 107.68
544 ; 121.52
548 ; 108.02
552 ; 114.87
556 ; 125.35
560 ; 115.19
564 ; 112.29
568 ; 115.29
572 ; 129.88
576 ; 133.26
580 ; 100.87
584 ; 111.94
588 ; 120.30
592 ; 118.60
596 ; 105.36
600 ; 112.28
604 ; 89.32
608 ; 106.22
612 ; 107.46
616 ; 104.05
620 ; 104.13
624 ; 78.18
628 ; 62.63
632 ; 65.45
636 ; 82.64
640 ; 71.56
644 ; 81.65
648 ; 84.25
652 ; 97.25
656 ; 78.79
660 ; 66.89
664 ; 59.45
668 ; 61.40
672 ; 78.70
676 ; 91.46
680 ; 76.98
684 ; 75.10
688 ; 69.80
692 ; 75.45
696 ; 102.79
700 ; 104.04
704 ; 142.30
708 ; 239.00
712 ; 384.18
716 ; 398.50
720 ; 317.16
724 ; 195.76
728 ; 141.31
732 ; 233.71
736 ; 511.37
740 ; 688.80
744 ; 529.39
748 ; 318.20
752 ; 161.65
756 ; 97.67
760 ; 73.91
764 ; 64.37
768 ; 47.89
772 ; 54.55
776 ; 67.44
780 ; 80.22
784 ; 31.99
788 ; 28.84
792 ; 56.45
796 ; 53.93
800 ; 51.26
804 ; 48.81
808 ; 21.59
812 ; 22.38
816 ; 44.75
820 ; 44.49
824 ; 28.84
828 ; 25.80
832 ; 41.29
836 ; 43.41
840 ; 33.97
844 ; 33.65
848 ; 21.00
852 ; 33.85
856 ; 44.65
860 ; 36.26
864 ; 30.75
868 ; 9.93
872 ; 33.87
876 ; 67.37
880 ; 39.45
884 ; 6.74
888 ; 33.29
892 ; 60.36
896 ; 57.93
900 ; 31.00
904 ; 30.02
908 ; 53.51
912 ; 57.34
916 ; 57.38
920 ; 51.29
924 ; 45.31
928 ; 29.87
932 ; 66.32
936 ; 33.12
940 ; 18.43
944 ; 39.76
948 ; 50.02
952 ; 42.85
956 ; 51.30
960 ; 45.24
964 ; 52.89
968 ; 41.12
972 ; 45.91
976 ; 37.85
980 ; 50.90
984 ; 52.43
988 ; 54.88
992 ; 52.40
996 ; 40.30
1000 ; 49.24
1004 ; 80.86
1008 ; 91.15
1012 ; 72.01
1016 ; 111.29
1020 ; 134.35
1024 ; 216.64
1028 ; 307.00
1032 ; 439.70
1036 ; 878.94
1040 ; 2897.46
1044 ; 9313.55
1048 ; 11522.89
1052 ; 5276.29
1056 ; 1819.07
1060 ; 810.46
1064 ; 433.34
1068 ; 231.69
1072 ; 178.61
1076 ; 157.25
1080 ; 112.75
1084 ; 84.03
1088 ; 108.83
1092 ; 69.89
1096 ; 99.47
1100 ; 76.51
1104 ; 62.65
1108 ; 54.06
1112 ; 64.10
1116 ; 77.12
1120 ; 57.57
1124 ; 60.61
1128 ; 87.57
1132 ; 86.47
1136 ; 63.17
1140 ; 32.70
1144 ; 44.83
1148 ; 50.94
1152 ; 68.62
1156 ; 35.67
1160 ; 55.15
1164 ; 42.56
1168 ; 93.97
1172 ; 52.88
1176 ; 34.40
1180 ; 33.91
1184 ; 68.33
1188 ; 82.95
1192 ; 37.63
1196 ; 17.78
1200 ; 50.79
1204 ; 60.08
1208 ; 31.01
1212 ; 13.34
1216 ; 40.76
1220 ; 58.30
1224 ; 32.84
1228 ; 16.09
1232 ; 15.29
1236 ; 24.54
1240 ; 54.67
1244 ; 39.15
1248 ; 54.46
1252 ; 74.19
1256 ; 28.72
1260 ; 5.66
1264 ; 32.72
1268 ; 52.12
1272 ; 37.35
1276 ; 50.53
1280 ; 47.77
1284 ; 58.59
1288 ; 84.79
1292 ; 79.97
1296 ; 50.50
1300 ; 69.63
1304 ; 68.78
1308 ; 98.26
1312 ; 70.92
1316 ; 63.25
1320 ; 134.76
1324 ; 87.15
1328 ; 110.80
1332 ; 104.50
1336 ; 187.03
1340 ; 192.85
1344 ; 251.71
1348 ; 297.24
1352 ; 322.71
1356 ; 374.62
1360 ; 253.25
1364 ; 287.66
1368 ; 209.92
1372 ; 156.25
1376 ; 116.19
1380 ; 96.70
1384 ; 89.20
1388 ; 106.10
1392 ; 95.92
1396 ; 84.24
1400 ; 135.71
1404 ; 116.94
1408 ; 93.45
1412 ; 136.82
1416 ; 174.23
1420 ; 192.47
1424 ; 196.93
1428 ; 192.11
1432 ; 285.42
1436 ; 253.33
1440 ; 172.85
1444 ; 214.31
1448 ; 231.67
1452 ; 247.92
1456 ; 116.49
1460 ; 194.59
1464 ; 211.46
1468 ; 220.61
1472 ; 113.28
1476 ; 161.64
1480 ; 154.85
1484 ; 136.71
1488 ; 77.83
1492 ; 83.24
1496 ; 118.89
1500 ; 83.00
1504 ; 35.54
1508 ; 53.27
1512 ; 107.91
1516 ; 55.91
1520 ; 12.04
1524 ; 73.04
1528 ; 65.47
1532 ; -2.88
1536 ; 13.17
1540 ; 48.98
1544 ; 94.18
1548 ; 13.95
1552 ; 49.94
1556 ; 116.36
1560 ; 0.25
1564 ; 31.68
1568 ; 49.42
1572 ; 80.79
1576 ; 40.67
1580 ; 18.55
1584 ; 32.02
1588 ; 90.72
1592 ; 29.80
1596 ; 44.19
1600 ; 104.86
1604 ; 98.33
1608 ; -6.82
1612 ; 22.37
1616 ; 103.31
1620 ; 88.25
1624 ; 18.04
1628 ; 120.66
1632 ; 202.56
1636 ; 185.37
1640 ; 151.45
1644 ; 110.91
1648 ; 189.33
1652 ; 107.66
1656 ; 43.12
1660 ; 176.12
1664 ; 70.61
1668 ; 13.60
1672 ; 1.08
1676 ; 78.52
1680 ; 42.90
1684 ; 27.48
1688 ; 78.76
1692 ; 68.46
1696 ; 55.11
1700 ; 67.28
1704 ; 49.12
1708 ; 4.43
1712 ; 25.13
1716 ; 5.43
1720 ; 39.66
1724 ; 22.84
1728 ; 2.86
1732 ; 61.84
1736 ; -4.48
1740 ; -27.82
1744 ; 120.21
1748 ; 63.13
1752 ; -32.13
1756 ; 49.82
1760 ; 98.41
1764 ; 35.04
1768 ; 16.77
1772 ; 71.97
1776 ; 85.92
1780 ; 71.32
1784 ; 77.98
1788 ; 39.13
1792 ; 35.26
1796 ; -64.99
1800 ; 128.55
1804 ; 64.71
1808 ; -27.19
1812 ; 108.60
1816 ; 62.07
1820 ; -63.11
1824 ; -23.99
1828 ; 55.21
1832 ; 5.27
1836 ; 12.84
1840 ; 23.37
1844 ; 93.00
1848 ; 24.89
1852 ; -36.83
1856 ; 79.34
1860 ; -36.04
1864 ; 12.66
1868 ; 97.91
1872 ; 88.11
1876 ; -72.81
1880 ; 18.28
1884 ; 53.91
1888 ; -46.55
1892 ; 110.92
1896 ; 55.11
1900 ; -14.32
1904 ; 17.59
1908 ; 93.81
1912 ; 124.74
1916 ; -19.36
1920 ; 37.91
1924 ; -6.49
1928 ; -18.22
1932 ; 192.18
1936 ; 80.06
1940 ; -48.83
1944 ; 40.23
1948 ; 108.85
1952 ; -205.06
1956 ; 25.44
1960 ; 82.22
1964 ; -10.75
1968 ; -6.34
1972 ; 101.96
1976 ; 40.26
1980 ; -21.88
1984 ; 79.90
1988 ; 1.29
1992 ; -107.96
1996 ; 119.96
2000 ; -19.61
2004 ; -79.57
2008 ; 118.81
2012 ; 33.59
2016 ; 10.02
2020 ; 152.34
2024 ; 81.81
2028 ; 40.35
2032 ; 146.44
2036 ; 115.18
2040 ; -70.13
2044 ; 78.14
2048 ; 146.87
2052 ; -28.52
2056 ; -13.04
2060 ; 130.51
2064 ; 91.10
2068 ; 165.18
2072 ; 71.56
2076 ; 46.23
2080 ; 180.21
2084 ; 3.29
2088 ; 105.09
2092 ; 92.78
2096 ; 10.12
2100 ; -92.27
2104 ; 158.87
2108 ; 40.59
2112 ; 51.79
2116 ; 11.45
2120 ; 266.37
2124 ; -6.82
2128 ; 191.72
2132 ; 34.30
2136 ; 78.73
2140 ; 64.05
2144 ; 200.51
2148 ; 40.23
2152 ; 112.15
2156 ; -8.01
2160 ; -50.28
2164 ; 125.69
2168 ; 142.35
2172 ; 105.51
2176 ; 108.02
2180 ; 1.27
2184 ; -21.86
2188 ; 92.70
2192 ; -73.83
2196 ; -20.14
2200 ; 210.55
2204 ; 47.20
2208 ; 173.52
2212 ; 147.24
2216 ; 28.38
2220 ; 89.87
2224 ; 311.00
2228 ; 132.61
2232 ; -30.79
2236 ; -97.59
2240 ; -191.64
2244 ; 253.28
2248 ; -134.38
2252 ; 161.61
2256 ; 55.27
2260 ; -31.43
2264 ; 147.08
2268 ; -135.50
2272 ; -86.49
2276 ; 10.94
2280 ; -19.57
2284 ; 131.49
2288 ; 417.47
2292 ; 41.64
2296 ; 210.44
2300 ; 131.95
2304 ; 26.82
2308 ; 369.95
2312 ; -191.92
2316 ; 15.40
2320 ; 39.02
2324 ; 73.18
2328 ; 114.73
2332 ; 281.51
2336 ; 50.56
2340 ; 70.62
2344 ; -192.63
2348 ; -194.37
2352 ; 158.34
2356 ; -191.60
2360 ; 111.90
2364 ; -159.65
2368 ; 119.09
2372 ; -9.02
2376 ; -277.32
2380 ; 359.02
2384 ; 27.28
2388 ; 389.40
2392 ; 73.87
2396 ; -270.14
2400 ; 285.68
2404 ; 567.55
2408 ; 101.65
2412 ; 38.59
2416 ; -364.31
2420 ; 145.69
2424 ; -89.55
2428 ; -240.22
2432 ; 99.36
2436 ; -90.53
2440 ; 41.63
2444 ; -85.52
2448 ; 186.91
2452 ; -322.55
2456 ; -439.29
2460 ; 296.55
2464 ; -231.62
2468 ; 277.55
2472 ; 203.47
2476 ; -348.42
2480 ; 424.93
2484 ; -427.45
2488 ; 191.99
2492 ; -115.12
2496 ; 145.73
2500 ; 268.76
