Raman Shift ; Dark Subtracted
176 ; 292.91
180 ; 278.64
184 ; 280.88
188 ; 285.36
192 ; 284.02
196 ; 285.54
200 ; 290.93
204 ; 286.57
208 ; 278.35
212 ; 294.48
216 ; 303.98
220 ; 296.67
224 ; 276.81
228 ; 273.84
232 ; 262.73
236 ; 217.37
240 ; 205.17
244 ; 176.86
248 ; 168.06
252 ; 152.97
256 ; 146.02
260 ; 136.94
264 ; 132.97
268 ; 127.97
272 ; 144.60
276 ; 133.41
280 ; 141.49
284 ; 130.98
288 ; 135.18
292 ; 142.23
296 ; 141.64
300 ; 135.44
304 ; 129.56
308 ; 147.48
312 ; 151.56
316 ; 137.55
320 ; 142.05
324 ; 144.75
328 ; 142.66
332 ; 129.24
336 ; 139.56
340 ; 140.77
344 ; 144.14
348 ; 147.52
352 ; 147.94
356 ; 146.53
360 ; 152.83
364 ; 155.47
368 ; 151.80
372 ; 149.33
376 ; 135.61
380 ; 118.05
384 ; 110.03
388 ; 112.52
392 ; 117.67
396 ; 125.35
400 ; 120.17
404 ; 130.20
408 ; 124.44
412 ; 114.76
416 ; 113.70
420 ; 112.41
424 ; 124.23
428 ; 103.71
432 ; 96.28
436 ; 103.80
440 ; 110.35
444 ; 101.50
448 ; 108.29
452 ; 101.42
456 ; 101.52
460 ; 108.96
464 ; 102.31
468 ; 92.22
472 ; 98.10
476 ; 109.04
480 ; 108.28
484 ; 98.88
488 ; 99.56
492 ; 93.72
496 ; 111.37
500 ; 102.32
504 ; 93.55
508 ; 101.10
512 ; 85.44
516 ; 91.86
520 ; 101.49
524 ; 75.14
528 ; 88.64
532 ; 94.43
536 ; 93.22
540 ; 114.17
544 ; 94.98
548 ; 101.30
552 ; 91.33
556 ; 96.68
560 ; 96.50
564 ; 95.32
568 ; 90.57
572 ; 86.14
576 ; 88.52
580 ; 76.88
584 ; 86.58
588 ; 84.58
592 ; 88.44
596 ; 84.24
600 ; 89.28
604 ; 93.86
608 ; 80.54
612 ; 85.51
616 ; 81.17
620 ; 79.86
624 ; 92.94
628 ; 82.94
632 ; 76.04
636 ; 82.21
640 ; 95.52
644 ; 93.52
648 ; 95.32
652 ; 96.81
656 ; 92.35
660 ; 100.05
664 ; 87.01
668 ; 87.69
672 ; 110.80
676 ; 102.49
680 ; 85.82
684 ; 89.93
688 ; 85.00
692 ; 92.68
696 ; 85.05
700 ; 111.31
704 ; 110.54
708 ; 114.31
712 ; 118.37
716 ; 136.22
720 ; 168.53
724 ; 196.09
728 ; 192.97
732 ; 205.13
736 ; 166.93
740 ; 150.64
744 ; 125.87
748 ; 105.89
752 ; 75.63
756 ; 80.00
760 ; 67.27
764 ; 77.02
768 ; 68.57
772 ; 74.49
776 ; 82.68
780 ; 71.08
784 ; 70.86
788 ; 80.71
792 ; 65.54
796 ; 75.60
800 ; 76.67
804 ; 66.90
808 ; 84.32
812 ; 87.03
816 ; 79.52
820 ; 70.55
824 ; 71.10
828 ; 70.59
832 ; 71.82
836 ; 54.41
840 ; 70.77
844 ; 75.77
848 ; 55.03
852 ; 79.51
856 ; 80.09
860 ; 73.34
864 ; 85.73
868 ; 78.10
872 ; 68.97
876 ; 71.40
880 ; 76.36
884 ; 78.27
888 ; 67.46
892 ; 82.69
896 ; 59.20
900 ; 63.66
904 ; 79.57
908 ; 68.06
912 ; 69.33
916 ; 104.41
920 ; 79.93
924 ; 66.58
928 ; 74.78
932 ; 36.87
936 ; 43.67
940 ; 57.64
944 ; 73.57
948 ; 80.63
952 ; 89.10
956 ; 80.39
960 ; 86.21
964 ; 81.14
968 ; 61.97
972 ; 75.63
976 ; 70.28
980 ; 77.07
984 ; 91.84
988 ; 91.92
992 ; 75.95
996 ; 82.23
1000 ; 77.57
1004 ; 63.62
1008 ; 86.90
1012 ; 69.89
1016 ; 89.96
1020 ; 95.99
1024 ; 111.11
1028 ; 116.16
1032 ; 120.67
1036 ; 157.10
1040 ; 192.38
1044 ; 246.75
1048 ; 496.85
1052 ; 2052.36
1056 ; 4701.10
1060 ; 3865.96
1064 ; 1396.19
1068 ; 533.85
1072 ; 282.92
1076 ; 160.61
1080 ; 153.31
1084 ; 131.98
1088 ; 133.59
1092 ; 101.82
1096 ; 115.62
1100 ; 104.43
1104 ; 79.51
1108 ; 104.16
1112 ; 95.77
1116 ; 96.13
1120 ; 115.11
1124 ; 145.36
1128 ; 128.57
1132 ; 113.31
1136 ; 124.20
1140 ; 66.72
1144 ; 90.32
1148 ; 97.75
1152 ; 68.87
1156 ; 81.43
1160 ; 92.04
1164 ; 72.60
1168 ; 73.50
1172 ; 103.92
1176 ; 62.08
1180 ; 91.30
1184 ; 66.61
1188 ; 32.91
1192 ; 55.79
1196 ; 52.12
1200 ; 38.74
1204 ; 68.73
1208 ; 47.81
1212 ; 95.15
1216 ; 50.73
1220 ; 53.08
1224 ; 52.39
1228 ; 96.23
1232 ; 67.42
1236 ; 62.35
1240 ; 60.28
1244 ; 75.79
1248 ; 33.66
1252 ; 60.64
1256 ; 50.32
1260 ; 67.90
1264 ; 86.14
1268 ; 88.49
1272 ; 82.30
1276 ; 54.40
1280 ; 66.42
1284 ; 75.23
1288 ; 94.07
1292 ; 114.89
1296 ; 126.64
1300 ; 121.86
1304 ; 102.00
1308 ; 117.54
1312 ; 87.38
1316 ; 89.98
1320 ; 83.27
1324 ; 110.46
1328 ; 90.75
1332 ; 106.76
1336 ; 97.34
1340 ; 168.91
1344 ; 85.91
1348 ; 147.35
1352 ; 120.36
1356 ; 137.95
1360 ; 158.16
1364 ; 145.41
1368 ; 117.98
1372 ; 91.39
1376 ; 139.02
1380 ; 136.76
1384 ; 151.26
1388 ; 90.45
1392 ; 120.48
1396 ; 92.51
1400 ; 134.74
1404 ; 124.02
1408 ; 138.79
1412 ; 150.25
1416 ; 180.19
1420 ; 201.88
1424 ; 195.66
1428 ; 245.89
1432 ; 289.88
1436 ; 286.68
1440 ; 209.44
1444 ; 233.33
1448 ; 155.01
1452 ; 151.81
1456 ; 179.64
1460 ; 129.40
1464 ; 161.27
1468 ; 105.14
1472 ; 109.60
1476 ; 80.06
1480 ; 91.46
1484 ; 74.60
1488 ; 81.67
1492 ; 78.98
1496 ; 92.01
1500 ; 59.90
1504 ; 84.86
1508 ; 73.15
1512 ; 87.89
1516 ; 50.08
1520 ; 101.27
1524 ; 73.16
1528 ; 47.56
1532 ; 67.94
1536 ; 75.62
1540 ; 82.51
1544 ; 76.53
1548 ; 90.10
1552 ; 87.46
1556 ; 55.14
1560 ; 72.56
1564 ; 91.90
1568 ; 78.61
1572 ; 63.70
1576 ; 101.84
1580 ; 12.57
1584 ; 58.07
1588 ; 73.00
1592 ; 41.95
1596 ; 62.28
1600 ; 92.12
1604 ; 102.06
1608 ; 120.66
1612 ; 23.60
1616 ; 76.41
1620 ; 52.86
1624 ; 102.36
1628 ; 81.41
1632 ; 97.94
1636 ; 116.57
1640 ; 137.96
1644 ; 67.91
1648 ; 65.98
1652 ; 139.98
1656 ; 74.40
1660 ; 115.42
1664 ; 86.05
1668 ; 100.31
1672 ; 100.96
1676 ; 102.85
1680 ; 58.95
1684 ; 78.33
1688 ; 52.38
1692 ; 91.15
1696 ; 111.79
1700 ; -22.47
1704 ; 100.55
1708 ; 24.51
1712 ; 70.18
1716 ; 72.51
1720 ; 100.57
1724 ; 74.24
1728 ; 69.91
1732 ; 82.00
1736 ; 37.39
1740 ; 55.36
1744 ; 64.37
1748 ; 50.21
1752 ; 62.63
1756 ; 161.87
1760 ; 134.75
1764 ; 53.19
1768 ; 15.45
1772 ; 22.98
1776 ; 9.40
1780 ; 119.49
1784 ; 66.98
1788 ; 102.00
1792 ; 66.73
1796 ; 78.27
1800 ; 146.05
1804 ; 90.97
1808 ; 16.72
1812 ; -0.26
1816 ; 28.61
1820 ; 83.23
1824 ; 26.63
1828 ; 140.86
1832 ; 53.25
1836 ; 84.27
1840 ; 154.23
1844 ; 12.22
1848 ; 142.77
1852 ; -10.80
1856 ; 67.49
1860 ; 118.41
1864 ; 62.75
1868 ; 51.72
1872 ; 71.66
1876 ; 20.92
1880 ; 85.69
1884 ; -8.77
1888 ; 191.38
1892 ; 54.92
1896 ; 63.17
1900 ; 66.08
1904 ; 53.34
1908 ; 24.17
1912 ; 109.72
1916 ; 83.39
1920 ; 64.41
1924 ; 75.67
1928 ; 145.73
1932 ; 56.49
1936 ; 71.97
1940 ; 17.30
1944 ; 175.91
1948 ; 108.06
1952 ; 102.60
1956 ; 29.31
1960 ; 92.28
1964 ; 162.76
1968 ; 115.53
1972 ; 129.97
1976 ; -33.89
1980 ; 141.57
1984 ; 20.39
1988 ; 70.68
1992 ; 136.18
1996 ; 93.33
2000 ; 54.33
2004 ; 154.99
2008 ; 186.84
2012 ; 32.84
2016 ; 64.18
2020 ; 82.65
2024 ; 63.29
2028 ; 117.97
2032 ; 11.05
2036 ; 222.07
2040 ; 38.21
2044 ; 136.97
2048 ; 246.21
2052 ; 165.51
2056 ; 185.14
2060 ; -145.93
2064 ; 81.97
2068 ; 35.16
2072 ; 202.91
2076 ; 84.12
2080 ; 114.38
2084 ; 56.02
2088 ; 112.76
2092 ; 78.49
2096 ; 214.21
2100 ; 158.23
2104 ; 92.31
2108 ; 38.90
2112 ; 102.22
2116 ; 192.60
2120 ; -68.55
2124 ; 20.72
2128 ; 126.06
2132 ; -12.49
2136 ; 327.18
2140 ; 48.80
2144 ; 25.44
2148 ; -4.40
2152 ; 5.16
2156 ; -20.09
2160 ; 246.29
2164 ; 58.82
2168 ; 111.83
2172 ; 22.32
2176 ; 10.64
2180 ; -6.89
2184 ; 137.42
2188 ; 69.42
2192 ; -73.99
2196 ; 5.61
2200 ; 191.68
2204 ; 36.81
2208 ; 70.83
2212 ; -25.91
2216 ; -7.41
2220 ; 181.29
2224 ; 174.68
2228 ; 147.38
2232 ; 71.07
2236 ; 67.70
2240 ; 134.31
2244 ; 3.80
2248 ; 220.73
2252 ; 79.58
2256 ; 203.99
2260 ; 251.19
2264 ; 228.48
2268 ; 80.07
2272 ; 33.97
2276 ; -52.06
2280 ; 305.45
2284 ; 204.75
2288 ; 87.91
2292 ; 193.87
2296 ; 102.65
2300 ; 50.39
2304 ; 124.59
2308 ; -58.48
2312 ; 196.34
2316 ; 87.18
2320 ; 121.55
2324 ; 227.08
2328 ; 69.44
2332 ; 14.24
2336 ; 176.81
2340 ; -155.95
2344 ; 54.50
2348 ; -155.59
2352 ; 179.01
2356 ; 285.70
2360 ; 205.09
2364 ; -122.99
2368 ; 277.79
2372 ; 440.76
2376 ; 325.78
2380 ; -218.00
2384 ; 78.23
2388 ; 305.82
2392 ; 137.64
2396 ; 311.07
2400 ; 20.41
2404 ; -54.96
2408 ; 426.16
2412 ; 251.30
2416 ; -89.61
2420 ; -144.06
2424 ; 139.84
2428 ; 108.00
2432 ; -250.96
2436 ; -63.28
2440 ; 317.76
2444 ; 137.32
2448 ; 150.03
2452 ; 245.84
2456 ; 36.58
2460 ; 224.01
2464 ; 164.83
2468 ; 131.21
2472 ; 181.94
2476 ; 109.30
2480 ; -62.47
2484 ; 382.80
2488 ; 15.76
2492 ; -3.80
2496 ; 330.37
2500 ; 138.08
